Folder: DiffusionTest_V3

Note: Ag_cubic.txt
Start of a new data set 
The energy is8047
 h k l 2theta Intensity
1 1 1 38.081657 2954445.601626
0 0 2 44.260283 1427007.375633
0 2 2 64.382994 887518.738413
1 1 3 77.321160 1034859.306557
2 2 2 81.458247 302023.796898
0 0 4 97.775575 164396.369042
1 3 3 110.374855 633611.654386
0 2 4 114.778821 648489.661812
2 2 4 134.663344 862555.151055
1 1 5 156.320634 1655047.674473

Note: Au_cubic.txt
Start of a new data set 
The energy is8047
 h k l 2theta Intensity
1 1 1 38.178603 8058449.937802
0 0 2 44.374524 3965485.738964
0 2 2 64.559890 2614678.833887
1 1 3 77.546032 3130461.233162
2 2 2 81.700295 919455.662580
0 0 4 98.097914 508916.110756
1 3 3 110.779803 1972568.781252
0 2 4 115.219137 2020790.947274
2 2 4 135.340605 2695804.940662
1 1 5 157.700043 5364556.309596

Start of a new data set 
The energy is8047
 h k l 2theta Intensity
1 1 1 38.178603 8058449.937802
0 0 2 44.374524 3965485.738964
0 2 2 64.559890 2614678.833887
1 1 3 77.546032 3130461.233162
2 2 2 81.700295 919455.662580
0 0 4 98.097914 508916.110756
1 3 3 110.779803 1972568.781252
0 2 4 115.219137 2020790.947274
2 2 4 135.340605 2695804.940662
1 1 5 157.700043 5364556.309596

Note: C_cubic.txt
Start of a new data set 
The energy is8047
 h k l 2theta Intensity
1 1 1 43.947394 27796.473961
0 2 2 75.328737 10843.997039
1 1 3 91.532841 6783.327095
0 0 4 119.567886 3286.278004
1 3 3 140.667168 9798.357080

Note: C_hexagonal.txt
Start of a new data set 
The energy is8047
 h k l 2theta Intensity
0 0 2 26.605935 301.503298
0 1 0 42.470211 19.658154
0 1 1 44.670996 54.201184
0 1 2 50.821657 14.494402
0 0 4 54.800065 101.947664
0 1 3 60.041596 32.840770
0 1 4 71.695931 8.375505
1 1 0 77.708499 60.343222
1 1 2 83.857979 55.254299
0 1 5 85.652665 20.256835
0 0 6 87.307790 52.960909
0 2 0 92.836501 6.239486
0 2 1 94.356332 18.446469
0 2 2 98.938732 5.905011
1 1 4 102.162390 46.049082
0 1 6 102.439047 5.744117
0 2 3 106.722905 16.714563
0 2 4 118.232765 5.207484
0 1 7 124.024709 15.196307
0 0 8 133.969427 38.951215
0 2 5 135.341765 14.537438
1 1 6 137.743676 38.460182
1 2 0 146.782874 4.685882
1 2 1 149.663463 13.962173
1 2 2 160.474487 4.562095
0 1 8 163.066990 2.273109

Start of a new data set 
The energy is8047
 h k l 2theta Intensity
0 0 2 26.605935 298.843668
0 1 0 42.470211 19.418203
0 1 1 44.670996 53.511145
0 1 2 50.821657 14.288440
0 0 4 54.800065 100.402967
0 1 3 60.041596 32.304012
0 1 4 71.695931 8.219074
1 1 0 77.708499 59.155828
1 1 2 83.857979 54.118267
0 1 5 85.652665 19.835634
0 0 6 87.307790 51.848797
0 2 0 92.836501 6.104544
0 2 1 94.356332 18.044606
0 2 2 98.938732 5.773751
1 1 4 102.162390 45.012376
0 1 6 102.439047 5.614665
0 2 3 106.722905 16.332110
0 2 4 118.232765 5.084253
0 1 7 124.024709 14.831715
0 0 8 133.969427 37.998104
0 2 5 135.341765 14.180874
1 1 6 137.743676 37.513126
1 2 0 146.782874 4.569014
1 2 1 149.663463 13.612769
1 2 2 160.474487 4.446789
0 1 8 163.066990 2.215557

Start of a new data set 
The energy is8047
 h k l 2theta Intensity
0 0 2 26.605935 620.136014
0 1 0 42.470211 116.763020
0 1 2 50.821657 1905.178439
0 0 4 54.800065 186.998543
0 1 3 60.041596 2444.596090
1 1 0 77.708499 848.596387
1 1 2 83.857979 72.642616
0 1 5 85.652665 571.298222
0 0 6 87.307790 780.587120
0 2 0 92.836501 34.486481
0 2 2 98.938732 70.951268
1 1 4 102.162390 558.171038
0 1 6 102.439047 88.541474
0 2 4 118.232765 19.939339
0 1 7 124.024709 184.678776
0 0 8 133.969427 38.964263
0 2 5 135.341765 1489.913709
1 1 6 137.743676 6869.794688
1 2 1 149.663463 582.922996
1 2 2 160.474487 935.186621
0 1 8 163.066990 1189.120000

Start of a new data set 
The energy is8047
 h k l 2theta Intensity
0 0 2 26.605935 620.136014
0 1 0 42.470211 116.763020
0 1 2 50.821657 1905.178439
0 0 4 54.800065 186.998543
0 1 3 60.041596 2444.596090
1 1 0 77.708499 848.596387
1 1 2 83.857979 72.642616
0 1 5 85.652665 571.298222
0 0 6 87.307790 780.587120
0 2 0 92.836501 34.486481
0 2 2 98.938732 70.951268
1 1 4 102.162390 558.171038
0 1 6 102.439047 88.541474
0 2 4 118.232765 19.939339
0 1 7 124.024709 184.678776
0 0 8 133.969427 38.964263
0 2 5 135.341765 1489.913709
1 1 6 137.743676 6869.794688
1 2 1 149.663463 582.922996
1 2 2 160.474487 935.186621
0 1 8 163.066990 1189.120000

Start of a new data set 
The energy is8047
 h k l 2theta Intensity
0 0 2 26.605935 620.136014
0 1 

Note: CrAlC_hexagonal.txt
Start of a new data set 
The energy is8047
 h k l 2theta Intensity
0 0 2 13.950808 247518.561013
0 0 4 28.113934 11602.272211
0 1 0 36.480522 158087.561532
0 1 1 37.185320 51033.884782
0 1 2 39.234652 1050.346951
0 1 3 42.464911 840224.803790
0 0 6 42.732682 157368.971331
0 1 4 46.680082 25797.927555
0 1 5 51.705534 11316.290805
0 1 6 57.412520 134793.684900
0 0 8 58.126261 438.356294
0 1 7 63.722337 10886.439793
1 1 0 65.658331 152610.993976
1 1 2 67.500203 12737.733436
0 1 8 70.603216 3340.076125
1 1 4 72.891065 3936.635797
0 2 0 77.511943 15355.961772
0 2 1 77.944337 3872.929825
0 1 9 78.068259 116766.040865
0 2 2 79.237453 197.160741
0 2 3 81.380722 104316.011448
1 1 6 81.563991 121529.951075
0 2 4 84.361686 3166.768481
0 2 5 88.173083 1833.298436
0 2 6 92.822170 32550.560961
1 1 8 93.426827 695.558840
0 2 7 98.343143 3265.587457
0 2 8 104.815941 1405.718968
1 2 0 111.813514 16734.712294
1 2 1 112.269342 4548.676083
0 2 9 112.400391 65914.331181
1 2 2 113.645946 329.909713
1 2 3 115.973468 134204.516451
1 2 4 119.312620 4947.020504
1 2 5 123.775664 3475.166318
1 2 6 129.572877 66316.158185
1 2 7 137.132102 9258.873801
0 3 0 139.770958 71690.032102
0 3 2 142.463530 7789.068564
1 2 8 147.515595 5692.688879
0 3 4 151.818559 4477.957663
1 2 9 165.673086 518832.562259

Start of a new data set 
The energy is8047
 h k l 2theta Intensity
0 0 2 13.950808 247518.561013
0 0 4 28.113934 11602.272211
0 1 0 36.480522 158087.561532
0 1 1 37.185320 51033.884782
0 1 2 39.234652 1050.346951
0 1 3 42.464911 840224.803790
0 0 6 42.732682 157368.971331
0 1 4 46.680082 25797.927555
0 1 5 51.705534 11316.290805
0 1 6 57.412520 134793.684900
0 0 8 58.126261 438.356294
0 1 7 63.722337 10886.439793
1 1 0 65.658331 152610.993976
1 1 2 67.500203 12737.733436
0 1 8 70.603216 3340.076125
1 1 4 72.891065 3936.635797
0 2 0 77.511943 15355.961772
0 2 1 77.944337 3872.929825
0 1 9 78.068259 116766.040865
0 2 2 79.237453 197.160741
0 2 3 81.380722 104316.011448
1 1 6 81.563991 121529.951075
0 2 4 84.361686 3166.768481
0 2 5 88.173083 1833.298436
0 2 6 92.822170 32550.560961
1 1 8 93.426827 695.558840
0 2 7 98.343143 3265.587457
0 2 8 104.815941 1405.718968
1 2 0 111.813514 16734.712294
1 2 1 112.269342 4548.676083
0 2 9 112.400391 65914.331181
1 2 2 113.645946 329.909713
1 2 3 115.973468 134204.516451
1 2 4 119.312620 4947.020504
1 2 5 123.775664 3475.166318
1 2 6 129.572877 66316.158185
1 2 7 137.132102 9258.873801
0 3 0 139.770958 71690.032102
0 3 2 142.463530 7789.068564
1 2 8 147.515595 5692.688879
0 3 4 151.818559 4477.957663
1 2 9 165.673086 518832.562259

Start of a new data set 
The energy is8047
 h k l 2theta Intensity
0 0 2 13.950808 247518.561013
0 0 4 28.113934 11602.272211
0 1 0 36.480522 158087.561532
0 1 1 37.185320 51033.884782
0 1 2 39.234652 1050.346951
0 1 3 42.464911 840224.803790
0 0 6 42.732682 157368.971331
0 1 4 46.680082 25797.927555
0 1 5 51.705534 1

File: Au_cubic_XRD_spherical_angles.txt
h,k,l,Incident_Theta,Incident_Psi,Reflected_Theta,Reflected_Psi,IncidentXYZ_1,IncidentXYZ_2,IncidentXYZ_3,ReflectedXYZ_1,ReflectedXYZ_2,ReflectedXYZ_3,Intensity
0,0,2,NaN,NaN,NaN,NaN,NaN,NaN,NaN,NaN,NaN,NaN,1.59074e+07
0,0,4,NaN,NaN,NaN,NaN,NaN,NaN,NaN,NaN,NaN,NaN,1.82319e+06
0,0,6,NaN,NaN,NaN,NaN,NaN,NaN,NaN,NaN,NaN,NaN,409162
0,0,8,NaN,NaN,NaN,NaN,NaN,NaN,NaN,NaN,NaN,NaN,199002
0,2,0,-11.6884,90.1,11.6884,90.1,0.979262,-0.202589,-0.00174533,0.979262,0.202589,-0.00174533,1.59074e+07
0,2,2,-23.7929,90.1,0.109288,66.2071,0.915008,-0.403432,-0.00174533,0.915008,0.00174533,0.403432,1.15462e+07
0,4,0,-23.9023,90.1,23.9023,90.1,0.914237,-0.405177,-0.00174533,0.914237,0.405177,-0.00174533,1.82319e+06
0,4,2,-30.3712,90.1,19.4548,66.2071,0.862767,-0.505599,-0.00174533,0.862767,0.304756,0.403432,4.87948e+06
0,4,4,-53.9604,90.1,0.169968,36.0398,0.588344,-0.808609,-0.00174533,0.588344,0.00174533,0.808609,1.01573e+06
0,6,0,-37.4282,90.1,37.4282,90.1,0.794115,-0.607766,-0.00174533,0.794115,0.607766,-0.00174533,409162
0,6,2,-42.432,90.1,36.2317,66.2071,0.738078,-0.674713,-0.00174533,0.738078,0.540818,0.403432,1.35985e+06
0,6,4,-61.2494,90.1,35.1606,36.0398,0.480998,-0.87672,-0.00174533,0.480998,0.338811,0.808609,924761
0,8,0,-54.1307,90.1,54.1307,90.1,0.585938,-0.810354,-0.00174533,0.585938,0.810354,-0.00174533,199002
0,8,2,-59.3802,90.1,56.1758,66.2071,0.509338,-0.860565,-0.00174533,0.509338,0.760143,0.403432,794850
1,1,1,-12.336,90.1,4.26534,78.4137,0.97691,-0.213643,-0.00174533,0.97691,0.07286,0.200843,3.12547e+07
1,1,3,-51.6452,90.1,-38.7305,52.6977,0.620528,-0.784182,-0.00174533,0.620528,-0.497679,0.60602,1.38535e+07
1,3,1,-20.5975,90.1,17.1485,78.4137,0.936073,-0.351801,-0.00174533,0.936073,0.28884,0.200843,1.38535e+07
1,3,3,-37.3696,90.1,2.42724,52.6977,0.794735,-0.606953,-0.00174533,0.794735,0.0336878,0.60602,5.358e+06
1,5,1,-32.4135,90.1,30.4852,78.4137,0.844201,-0.536025,-0.00174533,0.844201,0.496978,0.200843,2.79268e+06
1,5,3,-43.9687,90.1,25.2043,52.6977,0.719719,-0.694264,-0.00174533,0.719719,0.338739,0.60602,3.44472e+06
1,7,1,-46.9148,90.1,45.7898,78.4137,0.683085,-0.730337,-0.00174533,0.683085,0.70218,0.200843,946089
1,7,3,-57.6126,90.1,47.6715,52.6977,0.53564,-0.844445,-0.00174533,0.53564,0.588073,0.60602,1.64933e+06
1,9,1,-68.1642,90.1,67.6859,78.4137,0.371948,-0.928252,-0.00174533,0.371948,0.906265,0.200843,994634
2,0,0,-11.6884,90.1,11.6884,90.1,0.979262,-0.202589,-0.00174533,0.979262,0.202589,-0.00174533,1.59074e+07
2,0,2,-23.7929,90.1,0.109288,66.2071,0.915008,-0.403432,-0.00174533,0.915008,0.00174533,0.403432,1.15462e+07
2,2,0,-16.6488,90.1,16.6488,90.1,0.958078,-0.286503,-0.00174533,0.958078,0.286503,-0.00174533,1.15462e+07
2,2,2,-25.3738,90.1,9.0854,66.2071,0.90353,-0.428521,-0.00174533,0.90353,0.144486,0.403432,3.99408e+06
2,2,4,-58.9862,90.1,-28.8664,36.0398,0.515243,-0.857042,-0.00174533,0.515243,-0.284035,0.808609,3.48238e+06
2,4,0,-26.9365,90.1,26.9365,90.1,0.891508,-0.453002,-0.00174533,0.891508,0.453002,-0.00174533,4.87948e+06
2,4,2,-32.876,90.1,23.3855,66.2071,0.839846,-0.542822,-0.00174533,0.839846,0.363182,0.403432,3.48238e+06
2,4,4,-54.4732,90.1,9.0122,36.0398,0.581083,-0.813842,-0.00174533,0.581083,0.0921614,0.808609,1.63665e+06
2,6,0,-39.8397,90.1,39.8397,90.1,0.767838,-0.640641,-0.00174533,0.767838,0.640641,-0.00174533,1.35985e+06
2,6,2,-44.7613,90.1,39.1044,66.2071,0.710046,-0.704153,-0.00174533,0.710046,0.577129,0.403432,1.16321e+06
2,6,4,-63.6108,90.1,40.9353,36.0398,0.444466,-0.895794,-0.00174533,0.444466,0.385489,0.808609,1.71593e+06
2,8,0,-56.6466,90.1,56.6466,90.1,0.549801,-0.835294,-0.00174533,0.549801,0.835294,-0.00174533,794850
2,8,2,-62.1296,90.1,59.2766,66.2071,0.467473,-0.884006,-0.00174533,0.467473,0.786582,0.403432,812801
3,1,1,-20.5975,90.1,17.1485,78.4137,0.936073,-0.351801,-0.00174533,0.936073,0.28884,0.200843,1.38535e+07
3,1,3,-37.3696,90.1,2.42724,52.6977,0.794735,-0.606953,-0.00174533,0.794735,0.0336878,0.60602,5.358e+06
3,3,1,-26.9505,90.1,24.5031,78.4137,0.891397,-0.453219,-0.00174533,0.891397,0.406291,0.200843,5.358e+06
3,3,3,-40.0458,90.1,15.7646,52.6977,0.765529,-0.643399,-0.00174533,0.765529,0.216112,0.60602,930892
3,5,1,-37.4245,90.1,35.8383,78.4137,0.794154,-0.607715,-0.00174533,0.794154,0.57357,0.200843,3.44472e+06
3,5,3,-48.253,90.1,33.1686,52.6977,0.665842,-0.746091,-0.00174533,0.665842,0.435194,0.60602,1.20632e+06
3,7,1,-51.6751,90.1,50.7269,78.4137,0.620119,-0.784506,-0.00174533,0.620119,0.758363,0.200843,1.64933e+06
3,7,3,-62.9303,90.1,55.1034,52.6977,0.455074,-0.890452,-0.00174533,0.455074,0.652416,0.60602,793379
3,9,1,-76.2777,90.1,75.9865,78.4137,0.237216,-0.971455,-0.00174533,0.237216,0.950469,0.200843,2.91466e+06
4,0,0,-23.9023,90.1,23.9023,90.1,0.914237,-0.405177,-0.00174533,0.914237,0.405177,-0.00174533,1.82319e+06
4,0,2,-30.3712,90.1,19.4548,66.2071,0.862767,-0.505599,-0.00174533,0.862767,0.304756,0.403432,4.87948e+06
4,0,4,-53.9604,90.1,0.169968,36.0398,0.588344,-0.808609,-0.00174533,0.588344,0.00174533,0.808609,1.01573e+06
4,2,0,-26.9365,90.1,26.9365,90.1,0.891508,-0.453002,-0.00174533,0.891508,0.453002,-0.00174533,4.87948e+06
4,2,2,-32.876,90.1,23.3855,66.2071,0.839846,-0.542822,-0.00174533,0.839846,0.363182,0.403432,3.48238e+06
4,2,4,-54.4732,90.1,9.0122,36.0398,0.581083,-0.813842,-0.00174533,0.581083,0.0921614,0.808609,1.63665e+06
4,4,0,-34.9602,90.1,34.9602,90.1,0.819549,-0.573007,-0.00174533,0.819549,0.573007,-0.00174533,1.01573e+06
4,4,2,-40.092,90.1,33.2728,66.2071,0.76501,-0.644016,-0.00174533,0.76501,0.501998,0.403432,1.63665e+06
4,4,4,-59.1237,90.1,29.2789,36.0398,0.513185,-0.858276,-0.00174533,0.513185,0.287738,0.808609,341070
4,6,0,-46.9237,90.1,46.9237,90.1,0.682971,-0.730443,-0.00174533,0.682971,0.730443,-0.00174533,924761
4,6,2,-51.827,90.1,47.5115,66.2071,0.618037,-0.786147,-0.00174533,0.618037,0.67474,0.403432,1.71593e+06
4,6,4,-72.5977,90.1,59.4469,36.0398,0.299078,-0.954227,-0.00174533,0.299078,0.50666,0.808609,794850
4,8,0,-64.959,90.1,64.959,90.1,0.423266,-0.906004,-0.00174533,0.423266,0.906004,-0.00174533,918844
4,8,2,-71.9738,90.1,70.233,66.2071,0.309452,-0.950913,-0.00174533,0.309452,0.861094,0.403432,2.05355e+06
5,1,1,-32.4135,90.1,30.4852,78.4137,0.844201,-0.536025,-0.00174533,0.844201,0.496978,0.200843,2.79268e+06
5,1,3,-43.9687,90.1,25.2043,52.6977,0.719719,-0.694264,-0.00174533,0.719719,0.338739,0.60602,3.44472e+06
5,3,1,-37.4245,90.1,35.8383,78.4137,0.794154,-0.607715,-0.00174533,0.794154,0.57357,0.200843,3.44472e+06
5,3,3,-48.253,90.1,33.1686,52.6977,0.665842,-0.746091,-0.00174533,0.665842,0.435194,0.60602,1.20632e+06
5,5,1,-46.9148,90.1,45.7898,78.4137,0.683085,-0.730337,-0.00174533,0.683085,0.70218,0.200843,946089
5,5,3,-57.6126,90.1,47.6715,52.6977,0.53564,-0.844445,-0.00174533,0.53564,0.588073,0.60602,824666
5,7,1,-61.9991,90.1,61.3635,78.4137,0.469485,-0.882939,-0.00174533,0.469485,0.859794,0.200843,1.68009e+06
5,7,3,-77.6171,90.1,74.3602,52.6977,0.214444,-0.976735,-0.00174533,0.214444,0.765998,0.60602,1.98927e+06
6,0,0,-37.4282,90.1,37.4282,90.1,0.794115,-0.607766,-0.00174533,0.794115,0.607766,-0.00174533,409162
6,0,2,-42.432,90.1,36.2317,66.2071,0.738078,-0.674713,-0.00174533,0.738078,0.540818,0.403432,1.35985e+06
6,0,4,-61.2494,90.1,35.1606,36.0398,0.480998,-0.87672,-0.00174533,0.480998,0.338811,0.808609,924761
6,2,0,-39.8397,90.1,39.8397,90.1,0.767838,-0.640641,-0.00174533,0.767838,0.640641,-0.00174533,1.35985e+06
6,2,2,-44.7613,90.1,39.1044,66.2071,0.710046,-0.704153,-0.00174533,0.710046,0.577129,0.403432,1.16321e+06
6,2,4,-63.6108,90.1,40.9353,36.0398,0.444466,-0.895794,-0.00174533,0.444466,0.385489,0.808609,1.71593e+06
6,4,0,-46.9237,90.1,46.9237,90.1,0.682971,-0.730443,-0.00174533,0.682971,0.730443,-0.00174533,924761
6,4,2,-51.827,90.1,47.5115,66.2071,0.618037,-0.786147,-0.00174533,0.618037,0.67474,0.403432,1.71593e+06
6,4,4,-72.5977,90.1,59.4469,36.0398,0.299078,-0.954227,-0.00174533,0.299078,0.50666,0.808609,794850
6,6,0,-59.2618,90.1,59.2618,90.1,0.511115,-0.85951,-0.00174533,0.511115,0.85951,-0.00174533,406401
6,6,2,-65.0738,90.1,62.5744,66.2071,0.421451,-0.90685,-0.00174533,0.421451,0.812171,0.403432,852119
7,1,1,-46.9148,90.1,45.7898,78.4137,0.683085,-0.730337,-0.00174533,0.683085,0.70218,0.200843,946089
7,1,3,-57.6126,90.1,47.6715,52.6977,0.53564,-0.844445,-0.00174533,0.53564,0.588073,0.60602,1.64933e+06
7,3,1,-51.6751,90.1,50.7269,78.4137,0.620119,-0.784506,-0.00174533,0.620119,0.758363,0.200843,1.64933e+06
7,3,3,-62.9303,90.1,55.1034,52.6977,0.455074,-0.890452,-0.00174533,0.455074,0.652416,0.60602,793379
7,5,1,-61.9991,90.1,61.3635,78.4137,0.469485,-0.882939,-0.00174533,0.469485,0.859794,0.200843,1.68009e+06
7,5,3,-77.6171,90.1,74.3602,52.6977,0.214444,-0.976735,-0.00174533,0.214444,0.765998,0.60602,1.98927e+06
8,0,0,-54.1307,90.1,54.1307,90.1,0.585938,-0.810354,-0.00174533,0.585938,0.810354,-0.00174533,199002
8,0,2,-59.3802,90.1,56.1758,66.2071,0.509338,-0.860565,-0.00174533,0.509338,0.760143,0.403432,794850
8,2,0,-56.6466,90.1,56.6466,90.1,0.549801,-0.835294,-0.00174533,0.549801,0.835294,-0.00174533,794850
8,2,2,-62.1296,90.1,59.2766,66.2071,0.467473,-0.884006,-0.00174533,0.467473,0.786582,0.403432,812801
8,4,0,-64.959,90.1,64.959,90.1,0.423266,-0.906004,-0.00174533,0.423266,0.906004,-0.00174533,918844
8,4,2,-71.9738,90.1,70.233,66.2071,0.309452,-0.950913,-0.00174533,0.309452,0.861094,0.403432,2.05355e+06
9,1,1,-68.1642,90.1,67.6859,78.4137,0.371948,-0.928252,-0.00174533,0.371948,0.906265,0.200843,994634
9,3,1,-76.2777,90.1,75.9865,78.4137,0.237216,-0.971455,-0.00174533,0.237216,0.950469,0.200843,2.91466e+06

File: C_hexagonal_XRD_spherical_angles.txt
h,k,l,Incident_Theta,Incident_Psi,Reflected_Theta,Reflected_Psi,IncidentXYZ_1,IncidentXYZ_2,IncidentXYZ_3,ReflectedXYZ_1,ReflectedXYZ_2,ReflectedXYZ_3,Intensity
0,0,2,NaN,NaN,NaN,NaN,NaN,NaN,NaN,NaN,NaN,NaN,76864.7
0,0,4,NaN,NaN,NaN,NaN,NaN,NaN,NaN,NaN,NaN,NaN,6046.18
0,0,6,NaN,NaN,NaN,NaN,NaN,NaN,NaN,NaN,NaN,NaN,1249.91
0,0,8,NaN,NaN,NaN,NaN,NaN,NaN,NaN,NaN,NaN,NaN,455.617
0,0,10,NaN,NaN,NaN,NaN,NaN,NaN,NaN,NaN,NaN,NaN,215.366
0,1,0,-11.2042,90.1,11.2042,90.1,0.980939,-0.194306,-0.00174533,0.980939,0.194306,-0.00174533,2927.04
0,1,2,-15.7606,90.1,6.93109,75.8101,0.962403,-0.271618,-0.00174533,0.962403,0.116994,0.245137,3002.77
0,1,4,-30.3827,90.1,-7.73419,60.5266,0.862665,-0.505773,-0.00174533,0.862665,-0.117161,0.492019,869.678
0,1,6,-63.7369,90.1,-48.9513,42.3621,0.442494,-0.89677,-0.00174533,0.442494,-0.508158,0.738901,303.574
0,2,1,-23.4618,90.1,22.453,83.01,0.917324,-0.398137,-0.00174533,0.917324,0.379086,0.121696,1129.85
0,2,3,-28.4248,90.1,18.907,68.3721,0.879441,-0.476004,-0.00174533,0.879441,0.30122,0.368578,823.12
0,2,5,-39.2195,90.1,10.5961,52.0147,0.774728,-0.632292,-0.00174533,0.774728,0.144932,0.61546,503.855
0,2,7,-60.1121,90.1,-10.2132,30.4194,0.498303,-0.867001,-0.00174533,0.498303,-0.0897772,0.862342,294.986
0,3,2,-37.4948,90.1,35.0773,75.8101,0.793407,-0.608689,-0.00174533,0.793407,0.557147,0.245137,1448.32
0,3,6,-54.7929,90.1,31.1711,42.3621,0.576532,-0.817072,-0.00174533,0.576532,0.348763,0.738901,928.432
0,4,0,-51.0072,90.1,51.0072,90.1,0.629222,-0.777224,-0.00174533,0.629222,0.777224,-0.00174533,23.0136
0,4,2,-52.8022,90.1,51.4209,75.8101,0.604568,-0.796552,-0.00174533,0.604568,0.757896,0.245137,45.434
0,4,4,-58.7699,90.1,53.4482,60.5266,0.518476,-0.855091,-0.00174533,0.518476,0.699357,0.492019,44.4972
0,4,6,-72.3339,90.1,63.2323,42.3621,0.303469,-0.95284,-0.00174533,0.303469,0.601608,0.738901,45.6155
0,5,1,-77.2498,90.1,77.1527,83.01,0.220701,-0.97534,-0.00174533,0.220701,0.96772,0.121696,266.003
1,0,0,-11.2042,90.1,11.2042,90.1,0.980939,-0.194306,-0.00174533,0.980939,0.194306,-0.00174533,2927.04
1,0,2,-15.7606,90.1,6.93109,75.8101,0.962403,-0.271618,-0.00174533,0.962403,0.116994,0.245137,3002.77
1,0,4,-30.3827,90.1,-7.73419,60.5266,0.862665,-0.505773,-0.00174533,0.862665,-0.117161,0.492019,869.678
1,0,6,-63.7369,90.1,-48.9513,42.3621,0.442494,-0.89677,-0.00174533,0.442494,-0.508158,0.738901,303.574
1,1,2,-22.4071,90.1,17.5236,75.8101,0.924498,-0.381184,-0.00174533,0.924498,0.291911,0.245137,8449.49
1,1,6,-47.912,90.1,-5.87922,42.3621,0.67027,-0.742116,-0.00174533,0.67027,-0.06902,0.738901,2611.41
1,2,1,-31.4186,90.1,30.7092,83.01,0.85338,-0.521286,-0.00174533,0.85338,0.506885,0.121696,871.403
1,2,3,-35.461,90.1,28.8131,68.3721,0.81451,-0.580147,-0.00174533,0.81451,0.448023,0.368578,725.542
1,2,5,-44.2901,90.1,24.7425,52.0147,0.715813,-0.69829,-0.00174533,0.715813,0.32988,0.61546,532.068
1,2,7,-61.1297,90.1,17.5239,30.4194,0.482828,-0.875713,-0.00174533,0.482828,0.152457,0.862342,375.555
1,3,0,-44.4736,90.1,44.4736,90.1,0.713572,-0.70058,-0.00174533,0.713572,0.70058,-0.00174533,55.9532
1,3,2,-46.2218,90.1,44.468,75.8101,0.691867,-0.722023,-0.00174533,0.691867,0.679137,0.245137,107.87
1,3,4,-51.9029,90.1,44.8697,60.5266,0.616995,-0.786965,-0.00174533,0.616995,0.614195,0.492019,98.544
1,3,6,-63.5611,90.1,48.6407,42.3621,0.445242,-0.895408,-0.00174533,0.445242,0.505752,0.738901,90.3242
1,4,0,-62.9265,90.1,62.9265,90.1,0.455133,-0.890422,-0.00174533,0.455133,0.890422,-0.00174533,776.189
1,4,4,-73.4137,90.1,70.859,60.5266,0.285459,-0.958389,-0.00174533,0.285459,0.822454,0.492019,1770.75
2,0,1,-23.4618,90.1,22.453,83.01,0.917324,-0.398137,-0.00174533,0.917324,0.379086,0.121696,1129.85
2,0,3,-28.4248,90.1,18.907,68.3721,0.879441,-0.476004,-0.00174533,0.879441,0.30122,0.368578,823.12
2,0,5,-39.2195,90.1,10.5961,52.0147,0.774728,-0.632292,-0.00174533,0.774728,0.144932,0.61546,503.855
2,0,7,-60.1121,90.1,-10.2132,30.4194,0.498303,-0.867001,-0.00174533,0.498303,-0.0897772,0.862342,294.986
2,1,1,-31.4186,90.1,30.7092,83.01,0.85338,-0.521286,-0.00174533,0.85338,0.506885,0.121696,871.403
2,1,3,-35.461,90.1,28.8131,68.3721,0.81451,-0.580147,-0.00174533,0.81451,0.448023,0.368578,725.542
2,1,5,-44.2901,90.1,24.7425,52.0147,0.715813,-0.69829,-0.00174533,0.715813,0.32988,0.61546,532.068
2,1,7,-61.1297,90.1,17.5239,30.4194,0.482828,-0.875713,-0.00174533,0.482828,0.152457,0.862342,375.555
2,2,0,-42.3065,90.1,42.3065,90.1,0.739553,-0.673096,-0.00174533,0.739553,0.673096,-0.00174533,497.481
2,2,4,-49.7302,90.1,42.0574,60.5266,0.646386,-0.763008,-0.00174533,0.646386,0.583183,0.492019,847.678
2,3,0,-57.8827,90.1,57.8827,90.1,0.531654,-0.84696,-0.00174533,0.531654,0.84696,-0.00174533,44.8975
2,3,2,-59.8482,90.1,58.7952,75.8101,0.502291,-0.864697,-0.00174533,0.502291,0.829223,0.245137,90.6296
2,3,4,-66.6957,90.1,62.9722,60.5266,0.395614,-0.918415,-0.00174533,0.395614,0.775505,0.492019,94.9719
3,0,0,-35.6561,90.1,35.6561,90.1,0.812529,-0.582918,-0.00174533,0.812529,0.582918,-0.00174533,778.524
3,0,4,-43.3727,90.1,33.3886,60.5266,0.726901,-0.68674,-0.00174533,0.726901,0.479096,0.492019,1193.07
3,0,8,-88.5666,90.1,81.4379,9.67287,0.0250153,-0.999686,-0.00174533,0.0250153,0.16615,0.985783,753.021
3,1,1,-44.8995,90.1,44.4674,83.01,0.708345,-0.705864,-0.00174533,0.708345,0.695296,0.121696,332.546
3,1,3,-48.5088,90.1,44.5467,68.3721,0.662504,-0.749057,-0.00174533,0.662504,0.652104,0.368578,310.531
3,1,5,-56.6941,90.1,45.838,52.0147,0.549108,-0.835749,-0.00174533,0.549108,0.565411,0.61546,281.548
3,1,7,-75.004,90.1,59.2672,30.4194,0.258751,-0.965943,-0.00174533,0.258751,0.435218,0.862342,266.706
3,2,1,-58.3568,90.1,58.0921,83.01,0.524627,-0.851331,-0.00174533,0.524627,0.842589,0.121696,269.931
3,2,3,-62.5061,90.1,60.2235,68.3721,0.461654,-0.887058,-0.00174533,0.461654,0.806862,0.368578,276.255
3,2,5,-73.4899,90.1,68.8652,52.0147,0.284184,-0.958768,-0.00174533,0.284184,0.735152,0.61546,301.309
4,0,1,-51.4429,90.1,51.1002,83.01,0.623293,-0.781986,-0.00174533,0.623293,0.772461,0.121696,137.595
4,0,3,-55.1771,90.1,52.0998,68.3721,0.571041,-0.82092,-0.00174533,0.571041,0.733528,0.368578,134.683
4,0,5,-64.0355,90.1,56.256,52.0147,0.437814,-0.899064,-0.00174533,0.437814,0.655384,0.61546,133.747
4,1,0,-62.9265,90.1,62.9265,90.1,0.455133,-0.890422,-0.00174533,0.455133,0.890422,-0.00174533,776.189
4,1,4,-73.4137,90.1,70.859,60.5266,0.285459,-0.958389,-0.00174533,0.285459,0.822454,0.492019,1770.75
5,0,1,-77.2498,90.1,77.1527,83.01,0.220701,-0.97534,-0.00174533,0.220701,0.96772,0.121696,266.003
5,0,2,-80.749,90.1,80.4552,75.8101,0.160759,-0.986992,-0.00174533,0.160759,0.956067,0.245137,99.9157

File: NaCl_cubic_XRD_spherical_angles.txt
h,k,l,Incident_Theta,Incident_Psi,Reflected_Theta,Reflected_Psi,IncidentX,IncidentY,IncidentZ,ReflectedX,ReflectedY,ReflectedZ,thetaDifferencex,thetaDifferencey,thetaDifferencez,DetectorPointX,DetectorPointY
2,0,2,-21.0632,90.4,0.428639,68.9373,0.933162,-0.359389,-0.00698126,0.933162,0.00698126,0.359389,0,0.366371,0.366371,19.7,20.7
2,0,4,-64.4203,90.4,-51.1269,43.4679,0.431755,-0.901964,-0.00698126,0.431755,-0.535593,0.72576,0,0.366371,0.732741,11.8,54.2
4,0,2,-27.0317,90.4,17.349,68.9373,0.890733,-0.454473,-0.00698126,0.890733,0.278269,0.359389,0,0.732741,0.366371,48.9,26.9
1,1,1,-10.9158,90.4,4.06052,79.8513,0.981883,-0.189361,-0.00698126,0.981883,0.0697023,0.176204,1.11022e-16,0.259063,0.183185,13.4,9.3
1,1,3,-44.2373,90.4,-31.4719,57.1409,0.71644,-0.697614,-0.00698126,0.71644,-0.438551,0.542575,0,0.259063,0.549556,11.3,33.1
3,1,1,-18.4457,90.4,15.4896,79.8513,0.948601,-0.316398,-0.00698126,0.948601,0.262885,0.176204,0,0.579283,0.183185,33.6,10.8
3,1,3,-32.9365,90.4,2.42808,57.1409,0.839253,-0.543696,-0.00698126,0.839253,0.0355871,0.542575,0,0.579283,0.549556,35.5,39.6
2,2,2,-22.561,90.4,8.2849,68.9373,0.923449,-0.383658,-0.00698126,0.923449,0.134468,0.359389,0,0.518126,0.366371,29.9,22.4
2,2,4,-50.1152,90.4,-21.2367,43.4679,0.641231,-0.767316,-0.00698126,0.641231,-0.24919,0.72576,0,0.518126,0.732741,27.6,60.2